Single Spectrum_013_3.2             
x       y           
[m<sup>-1</sup>]     [CCD cts]         
746.98485  778.79999            
846.13286  778.79999            
945.26757  778.20001            
1044.389  778.40002            
1143.4971  777.79999            
1242.5919  778.59998            
1341.6735  778            
1440.7417  778.59998            
1539.7967  779            
1638.8383  777.59998            
1737.8667  778.40002            
1836.8818  779.40002            
1935.8836  778.59998            
2034.8721  778.40002            
2133.8474  778.40002            
2232.8093  777.59998            
2331.758  778            
2430.6935  777.79999            
2529.6156  777.79999            
2628.5245  778.40002            
2727.4201  779            
2826.3024  778.40002            
2925.1715  778.20001            
3024.0273  778.20001            
3122.8698  778            
3221.6991  779.20001            
3320.5151  778.40002            
3419.3178  777.40002            
3518.1073  778.79999            
3616.8835  778.20001            
3715.6465  777.79999            
3814.3962  778.40002            
3913.1327  778.79999            
4011.8559  778.59998            
4110.5659  778.20001            
4209.2626  778.79999            
4307.9461  778.59998            
4406.6163  778.79999            
4505.2733  778            
4603.917  779.20001            
4702.5475  778.59998            
4801.1648  779            
4899.7688  778.40002            
4998.3596  778            
5096.9372  778.20001            
5195.5015  778.59998            
5294.0526  777.59998            
5392.5904  778.79999            
5491.1151  778.20001            
5589.6265  777.59998            
5688.1247  779.40002            
5786.6096  778.59998            
5885.0814  778.20001            
5983.5399  778            
6081.9852  778.59998            
6180.4173  777.40002            
6278.8361  777.79999            
6377.2418  779.20001            
6475.6342  779.20001            
6574.0134  778.59998            
6672.3794  777.40002            
6770.7322  778            
6869.0718  778.40002            
6967.3982  778.20001            
7065.7114  779            
7164.0114  778.79999            
7262.2982  778.59998            
7360.5718  778.40002            
7458.8322  777.40002            
7557.0794  778.20001            
7655.3134  779.20001            
7753.5342  778.20001            
7851.7418  777.59998            
7949.9362  778.20001            
8048.1175  778.20001            
8146.2855  778.59998            
8244.4404  778.79999            
8342.5821  778.79999            
8440.7105  779            
8538.8259  778.79999            
8636.928  778.40002            
8735.017  778.40002            
8833.0927  779            
8931.1553  779.20001            
9029.2048  778.79999            
9127.241  777.59998            
9225.2641  778.79999            
9323.2741  778            
9421.2708  778.59998            
9519.2544  778.79999            
9617.2248  778            
9715.1821  780            
9813.1262  779.20001            
9911.0571  780            
10008.975  783.79999            
10106.88  786.79999            
10204.771  792.59998            
10302.649  803.40002            
10400.514  816.20001            
10498.367  830.40002            
10596.205  833.79999            
10694.031  836.40002            
10791.844  825.79999            
10889.643  819.20001            
10987.429  817.59998            
11085.203  816.59998            
11182.963  820            
11280.709  819.59998            
11378.443  823.79999            
11476.164  828.20001            
11573.871  830.79999            
11671.565  836            
11769.247  841.20001            
11866.915  841.59998            
11964.57  846.40002            
12062.211  843            
12159.84  842.59998            
12257.456  846.79999            
12355.058  843            
12452.647  841.59998            
12550.224  842.79999            
12647.787  842.79999            
12745.337  843.59998            
12842.874  840            
12940.397  840.40002            
13037.908  844.40002            
13135.405  849.40002            
13232.89  845            
13330.361  840.20001            
13427.819  844.40002            
13525.265  846.40002            
13622.696  844.59998            
13720.115  845            
13817.521  843.79999            
13914.914  844.20001            
14012.293  843            
14109.66  852            
14207.013  845.20001            
14304.354  849            
14401.681  847.79999            
14498.995  844.59998            
14596.296  847.20001            
14693.584  843            
14790.859  844            
14888.121  848.40002            
14985.37  851.40002            
15082.605  847            
15179.828  846.40002            
15277.037  847.79999            
15374.234  847.59998            
15471.417  847.20001            
15568.587  843.20001            
15665.744  843.59998            
15762.889  844.59998            
15860.02  847.40002            
15957.138  848.40002            
16054.243  838.40002            
16151.334  846            
16248.413  849.20001            
16345.479  846.79999            
16442.532  845.59998            
16539.571  842.20001            
16636.598  846.59998            
16733.611  847.20001            
16830.612  843            
16927.599  846.59998            
17024.574  845            
17121.535  840.79999            
17218.483  843.79999            
17315.418  846.20001            
17412.341  840.59998            
17509.25  838.20001            
17606.146  841.40002            
17703.029  842            
17799.899  839.79999            
17896.756  840.40002            
17993.6  841.20001            
18090.431  839.59998            
18187.249  836.20001            
18284.054  838.59998            
18380.845  834.40002            
18477.624  840.20001            
18574.39  840.20001            
18671.143  835.20001            
18767.882  835.20001            
18864.609  836.20001            
18961.323  836            
19058.023  836.20001            
19154.711  840            
19251.386  839.79999            
19348.047  837.79999            
19444.696  838.59998            
19541.332  835.59998            
19637.954  836            
19734.564  837.20001            
19831.16  837.59998            
19927.744  839.79999            
20024.315  842.40002            
20120.872  841.40002            
20217.417  841.20001            
20313.948  841.79999            
20410.467  835.40002            
20506.972  836.79999            
20603.465  835            
20699.945  832.40002            
20796.411  837.20001            
20892.865  837.79999            
20989.305  834.79999            
21085.733  834.59998            
21182.148  835            
21278.549  836            
21374.938  839.20001            
21471.314  836.59998            
21567.677  832.59998            
21664.026  834.20001            
21760.363  838.40002            
21856.687  835.79999            
21952.998  835.79999            
22049.296  831.59998            
22145.581  830.40002            
22241.852  834.20001            
22338.111  833.59998            
22434.357  833.20001            
22530.59  830.59998            
22626.81  832.40002            
22723.018  831.79999            
22819.212  832.40002            
22915.393  832.40002            
23011.561  833.79999            
23107.716  830            
23203.859  831.40002            
23299.988  834.59998            
23396.105  837.40002            
23492.208  832.40002            
23588.299  831.20001            
23684.376  831.20001            
23780.441  831            
23876.492  831.59998            
23972.531  834            
24068.557  831.79999            
24164.57  830.59998            
24260.57  832.59998            
24356.557  831.59998            
24452.531  830            
24548.492  832            
24644.44  832.20001            
24740.375  829            
24836.298  832.59998            
24932.207  828            
25028.104  830.59998            
25123.987  832.20001            
25219.858  831            
25315.716  826.79999            
25411.56  830            
25507.392  829.59998            
25603.211  833.20001            
25699.017  832.59998            
25794.81  832            
25890.591  831.59998            
25986.358  834            
26082.112  832            
26177.854  830.20001            
26273.582  830.40002            
26369.298  831.59998            
26465.001  831.40002            
26560.691  832.79999            
26656.368  833.40002            
26752.032  828.59998            
26847.683  832.79999            
26943.321  829.40002            
27038.947  831.79999            
27134.559  831.59998            
27230.159  831            
27325.746  835.20001            
27421.319  832.59998            
27516.88  828.40002            
27612.428  827.79999            
27707.964  830.59998            
27803.486  836            
27898.995  833.59998            
27994.492  833.20001            
28089.976  831.59998            
28185.446  832            
28280.904  832.59998            
28376.349  834            
28471.781  833.40002            
28567.201  830            
28662.607  834.20001            
28758.001  833            
28853.381  830.40002            
28948.749  829            
29044.104  831.79999            
29139.446  831.40002            
29234.776  832.40002            
29330.092  834.40002            
29425.396  835.79999            
29520.686  835.59998            
29615.964  837            
29711.229  832.59998            
29806.481  833.79999            
29901.72  834.40002            
29996.947  834.40002            
30092.16  832.40002            
30187.361  833            
30282.549  838.20001            
30377.724  832.59998            
30472.886  835            
30568.036  835.20001            
30663.172  833.20001            
30758.296  833.40002            
30853.407  834.79999            
30948.505  833.59998            
31043.59  832            
31138.662  835.79999            
31233.722  835.20001            
31328.769  836            
31423.802  831.59998            
31518.823  836.40002            
31613.832  835.59998            
31708.827  834.59998            
31803.81  838.59998            
31898.779  838.40002            
31993.736  836.20001            
32088.681  835.79999            
32183.612  833.79999            
32278.53  834.79999            
32373.436  832.79999            
32468.329  831.79999            
32563.209  835.40002            
32658.076  834.40002            
32752.931  835            
32847.773  834.20001            
32942.601  836.40002            
33037.417  835.79999            
33132.221  838.59998            
33227.011  833.59998            
33321.789  838            
33416.554  837.20001            
33511.306  836.40002            
33606.045  835            
33700.772  836.79999            
33795.485  834.59998            
33890.186  838.40002            
33984.874  836.79999            
34079.55  840            
34174.212  839.79999            
34268.862  834.40002            
34363.499  834.59998            
34458.123  837.20001            
34552.735  838.20001            
34647.334  838.40002            
34741.919  840.79999            
34836.493  840.40002            
34931.053  840.40002            
35025.601  836.59998            
35120.135  840            
35214.657  838.79999            
35309.167  838.59998            
35403.663  840.59998            
35498.147  840.79999            
35592.618  843.20001            
35687.076  843            
35781.522  841.59998            
35875.955  842            
35970.375  842            
36064.782  839.20001            
36159.176  841            
36253.558  840.20001            
36347.927  842.20001            
36442.283  845.20001            
36536.627  840.79999            
36630.957  843            
36725.275  840.59998            
36819.581  840.59998            
36913.873  842.20001            
37008.153  841.20001            
37102.42  842.59998            
37196.674  842.20001            
37290.916  838.40002            
37385.145  837.59998            
37479.361  843.20001            
37573.564  840.40002            
37667.755  838.20001            
37761.933  839.40002            
37856.098  839.79999            
37950.25  843.40002            
38044.39  841.59998            
38138.517  844.79999            
38232.631  838.20001            
38326.733  835.79999            
38420.822  838.79999            
38514.898  843.40002            
38608.961  842.79999            
38703.012  839.79999            
38797.05  836.79999            
38891.075  838.59998            
38985.088  841.79999            
39079.088  840.40002            
39173.075  844.20001            
39267.05  839.59998            
39361.011  834            
39454.96  838.59998            
39548.897  842.40002            
39642.821  839.79999            
39736.731  840.20001            
39830.63  845.20001            
39924.515  840.79999            
40018.388  840.40002            
40112.249  836            
40206.096  838.20001            
40299.931  835.59998            
40393.753  838.40002            
40487.562  840.79999            
40581.359  840.59998            
40675.143  841.40002            
40768.915  838.79999            
40862.674  842            
40956.42  840.40002            
41050.153  843            
41143.874  842.79999            
41237.582  838            
41331.277  842            
41424.96  840.40002            
41518.63  837.79999            
41612.287  836.79999            
41705.932  838            
41799.564  842            
41893.183  840.20001            
41986.79  837.20001            
42080.384  840.59998            
42173.966  837.59998            
42267.534  840.79999            
42361.09  837.59998            
42454.634  837            
42548.165  839            
42641.683  842.40002            
42735.188  842.20001            
42828.681  839.40002            
42922.161  834.79999            
43015.629  840.59998            
43109.084  840.40002            
43202.526  841            
43295.955  841.40002            
43389.372  841.20001            
43482.777  838.79999            
43576.168  839.20001            
43669.547  841            
43762.914  841.40002            
43856.268  841            
43949.609  838.20001            
44042.937  842.79999            
44136.253  843            
44229.557  843.40002            
44322.847  841            
44416.125  837.59998            
44509.391  838            
44602.644  837.40002            
44695.884  839.20001            
44789.111  840            
44882.326  841.59998            
44975.529  845.40002            
45068.718  837.59998            
45161.895  837            
45255.06  841.40002            
45348.212  841.59998            
45441.351  840.20001            
45534.478  840.40002            
45627.592  842.79999            
45720.693  846            
45813.782  841.79999            
45906.858  842            
45999.922  841.20001            
46092.973  842.79999            
46186.011  839.79999            
46279.037  842.79999            
46372.051  838.40002            
46465.051  843.40002            
46558.039  847.20001            
46651.015  847.40002            
46743.978  841.79999            
46836.928  844.59998            
46929.866  840.59998            
47022.791  848            
47115.704  842.79999            
47208.604  841.40002            
47301.491  847.40002            
47394.366  842.79999            
47487.228  844            
47580.078  844.40002            
47672.915  841.20001            
47765.74  838.79999            
47858.552  842.59998            
47951.351  844.59998            
48044.138  847.59998            
48136.912  839            
48229.674  845            
48322.423  846.79999            
48415.16  846.40002            
48507.884  845.40002            
48600.595  847.20001            
48693.294  844.79999            
48785.981  845.59998            
48878.654  844.79999            
48971.316  843.59998            
49063.964  842.79999            
49156.601  846.20001            
49249.224  839.20001            
49341.835  839.40002            
49434.434  843.59998            
49527.02  841.40002            
49619.593  842.79999            
49712.154  846            
49804.703  845.20001            
49897.238  845            
49989.762  845.40002            
50082.273  846.20001            
50174.771  844.20001            
50267.256  844.40002            
50359.73  842            
50452.19  846            
50544.638  844.20001            
50637.074  843.59998            
50729.497  843.40002            
50821.908  846.20001            
50914.306  842.20001            
51006.691  846.20001            
51099.064  845.40002            
51191.424  846            
51283.772  841.40002            
51376.108  848.59998            
51468.431  846.59998            
51560.741  846.20001            
51653.039  845.59998            
51745.324  844            
51837.597  844            
51929.858  849.79999            
52022.106  845.59998            
52114.341  845.20001            
52206.564  847.79999            
52298.774  843.40002            
52390.972  842            
52483.157  845.20001            
52575.33  843.79999            
52667.491  843.79999            
52759.638  847.59998            
52851.774  851.79999            
52943.897  846.40002            
53036.007  850.59998            
53128.105  848            
53220.191  848.59998            
53312.263  849.20001            
53404.324  851            
53496.372  853.79999            
53588.407  853            
53680.431  854.59998            
53772.441  849.59998            
53864.439  853            
53956.425  856.79999            
54048.398  858            
54140.359  852.40002            
54232.307  858            
54324.242  856.79999            
54416.166  858.20001            
54508.077  857.79999            
54599.975  859.79999            
54691.861  863.20001            
54783.734  859.79999            
54875.595  859.40002            
54967.444  863            
55059.28  865.20001            
55151.103  866.79999            
55242.914  863.79999            
55334.713  865.40002            
55426.499  859.79999            
55518.273  869.20001            
55610.034  863.79999            
55701.783  866.79999            
55793.519  862.40002            
55885.243  868            
55976.955  867.59998            
56068.654  870.59998            
56160.341  867.40002            
56252.015  871.40002            
56343.677  873.79999            
56435.326  870.59998            
56526.963  875.20001            
56618.588  874.20001            
56710.2  879.40002            
56801.799  884.20001            
56893.386  882.40002            
56984.961  877.20001            
57076.523  874.79999            
57168.073  877            
57259.611  877.79999            
57351.136  882.79999            
57442.649  880.20001            
57534.149  882.79999            
57625.637  880.20001            
57717.112  881.20001            
57808.575  882.59998            
57900.026  890            
57991.464  889.40002            
58082.89  888            
58174.303  885.20001            
58265.704  882.40002            
58357.092  887.20001            
58448.468  889.20001            
58539.832  884.20001            
58631.184  891.79999            
58722.522  884.59998            
58813.849  884.79999            
58905.163  882.20001            
58996.465  888.79999            
59087.754  892.40002            
59179.031  893.20001            
59270.296  892.79999            
59361.548  891.40002            
59452.788  895            
59544.015  887            
59635.23  891.79999            
59726.433  892.59998            
59817.623  894.59998            
59908.801  889.59998            
59999.966  895.20001            
60091.119  900.20001            
60182.26  898.20001            
60273.389  896.59998            
60364.505  901.59998            
60455.608  901.59998            
60546.699  900            
60637.778  902.59998            
60728.845  905            
60819.899  906.59998            
60910.941  909.20001            
61001.97  916.79999            
61092.987  914.79999            
61183.992  914.59998            
61274.984  908.40002            
61365.964  910.59998            
61456.932  911            
61547.887  914.20001            
61638.83  914.59998            
61729.76  912.20001            
61820.679  909.59998            
61911.584  912.79999            
62002.478  910            
62093.359  911.20001            
62184.228  914.79999            
62275.084  917            
62365.928  910.59998            
62456.76  907.20001            
62547.58  909            
62638.387  906            
62729.181  909.40002            
62819.964  904.59998            
62910.734  903            
63001.492  903            
63092.237  896.20001            
63182.97  896.59998            
63273.691  893            
63364.4  902            
63455.096  898.79999            
63545.779  890            
63636.451  890.20001            
63727.11  891.79999            
63817.757  893.20001            
63908.391  887.40002            
63999.014  885.40002            
64089.624  879.59998            
64180.221  876.20001            
64270.806  881.59998            
64361.379  884.40002            
64451.94  879            
64542.488  880.40002            
64633.024  874            
64723.548  873.20001            
64814.059  876.79999            
64904.558  873.79999            
64995.045  873.20001            
65085.52  868.20001            
65175.982  869.59998            
65266.432  861.40002            
65356.87  863.59998            
65447.295  868.59998            
65537.708  860.20001            
65628.109  862.20001            
65718.497  854.79999            
65808.873  856.20001            
65899.237  852.20001            
65989.589  853.59998            
66079.928  854.59998            
66170.255  849            
66260.57  843            
66350.872  845.59998            
66441.162  844.59998            
66531.44  846.79999            
66621.706  845.79999            
66711.959  844.59998            
66802.2  842.20001            
66892.429  839.20001            
66982.646  839.59998            
67072.85  836            
67163.042  838.79999            
67253.222  835.20001            
67343.389  836.40002            
67433.544  837.20001            
67523.687  837.79999            
67613.818  832            
67703.937  831.20001            
67794.043  834            
67884.137  833.79999            
67974.218  831.79999            
68064.288  830.20001            
68154.345  830.59998            
68244.39  828.40002            
68334.422  828.59998            
68424.443  827.59998            
68514.451  826.20001            
68604.447  828.59998            
68694.431  828            
68784.402  829.59998            
68874.361  827.79999            
68964.308  824            
69054.243  826.20001            
69144.165  825.40002            
69234.076  825            
69323.974  826.79999            
69413.859  823.59998            
69503.733  825.40002            
69593.594  822.59998            
69683.443  825.79999            
69773.28  824.79999            
69863.105  820            
69952.917  823.79999            
70042.718  823.20001            
70132.506  822.59998            
70222.281  821.59998            
70312.045  824.40002            
70401.796  823.40002            
70491.535  819.20001            
70581.262  818            
70670.977  820            
70760.679  822.20001            
70850.37  821.20001            
70940.048  824.20001            
71029.714  821.40002            
71119.367  822.79999            
71209.009  821.40002            
71298.638  818.20001            
71388.255  818.40002            
71477.86  821.40002            
71567.453  819.79999            
71657.033  824.40002            
71746.601  822.20001            
71836.157  820            
71925.701  818.40002            
72015.233  819.20001            
72104.752  817.79999            
72194.26  819            
72283.755  818.40002            
72373.238  817.20001            
72462.708  819            
72552.167  818            
72641.613  820.40002            
72731.048  817.59998            
72820.47  818.20001            
72909.879  817.59998            
72999.277  817.40002            
73088.663  814.40002            
73178.036  817.79999            
73267.397  816.20001            
73356.746  818            
73446.083  815.20001            
73535.408  817            
73624.72  816            
73714.02  821            
73803.309  817.79999            
73892.585  817.20001            
73981.848  816.79999            
74071.1  816.59998            
74160.34  815.79999            
74249.567  815.40002            
74338.782  815.20001            
74427.985  813.59998            
74517.176  816.20001            
74606.355  815.59998            
74695.521  813.59998            
74784.676  814.20001            
74873.818  812.40002            
74962.948  812.20001            
75052.066  814.79999            
75141.172  812            
75230.266  814            
75319.348  814.59998            
75408.417  815.20001            
75497.474  811.59998            
75586.52  815.40002            
75675.553  812.79999            
75764.574  813.59998            
75853.582  811.79999            
75942.579  810.79999            
76031.564  812            
76120.536  811            
76209.496  813.59998            
76298.445  810.20001            
76387.381  811.20001            
76476.305  810.59998            
76565.216  812.40002            
76654.116  809.40002            
76743.004  811.40002            
76831.879  811            
76920.742  811            
77009.594  812.59998            
77098.433  812.20001            
77187.26  812.79999            
77276.075  811            
77364.878  810.40002            
77453.668  810.79999            
77542.447  811            
77631.213  812            
77719.968  807.20001            
77808.71  810.79999            
77897.44  809.79999            
77986.158  809.20001            
78074.864  810.20001            
78163.558  809.59998            
78252.24  808            
78340.91  810            
78429.567  806.20001            
78518.213  810.40002            
78606.846  809.59998            
78695.468  812.40002            
78784.077  811.79999            
78872.674  811.40002            
78961.259  813            
79049.832  811            
79138.393  808.59998            
79226.942  809            
79315.479  808.20001            
79404.004  808.40002            
79492.516  813.40002            
79581.017  811.79999            
79669.505  813.40002            
79757.982  808.79999            
79846.446  808.20001            
79934.899  809            
80023.339  809            
80111.767  810            
80200.183  810.20001            
80288.587  808.59998            
80376.979  807.79999            
80465.359  808.59998            
80553.727  811            
80642.083  808.79999            
80730.427  806.59998            
80818.758  806.40002            
80907.078  808.79999            
80995.386  808.40002            
81083.681  809.79999            
81171.965  808.20001            
81260.236  810.79999            
81348.496  807.59998            
81436.743  807.79999            
81524.979  807            
81613.202  807            
81701.413  808.59998            
81789.612  808            
81877.8  808            
81965.975  808.20001            
82054.138  806.40002            
82142.289  808.40002            
