Single Spectrum_026_Spec.Data 1 4.10             
x       y           
[m<sup>-1</sup>]     [CCD cts]         
3041.8936  775.40002            
3249.1231  776            
3456.2943  776.40002            
3663.4075  775.40002            
3870.4624  776.5            
4077.4593  775.70001            
4284.398  775.5            
4491.2787  775.70001            
4698.1013  775.79999            
4904.8658  775.79999            
5111.5724  775.79999            
5318.2209  776.09998            
5524.8115  776.5            
5731.3442  775.90002            
5937.8189  775.79999            
6144.2357  776.20001            
6350.5947  776.59998            
6556.8958  776.59998            
6763.139  778.90002            
6969.3245  779.09998            
7175.4521  781.40002            
7381.522  783            
7587.5342  786.09998            
7793.4886  791.59998            
7999.3853  791.20001            
8205.2243  793.40002            
8411.0057  793.79999            
8616.7295  793.59998            
8822.3956  797.09998            
9028.0042  798.20001            
9233.5552  798            
9439.0486  798.40002            
9644.4846  796.59998            
9849.863  795.20001            
10055.184  796.40002            
10260.447  798.29999            
10465.653  795.70001            
10670.802  796.09998            
10875.893  796.90002            
11080.927  795.5            
11285.904  795.90002            
11490.823  797.79999            
11695.685  795.70001            
11900.49  795            
12105.237  795.70001            
12309.927  793.59998            
12514.56  796.70001            
12719.136  795.70001            
12923.654  794.59998            
13128.116  793.90002            
13332.52  792.70001            
13536.867  792.70001            
13741.157  793.40002            
13945.391  792.59998            
14149.567  793.09998            
14353.686  793.40002            
14557.748  792.90002            
14761.753  792.59998            
14965.701  793.40002            
15169.592  792.29999            
15373.426  794.29999            
15577.204  792.70001            
15780.924  793.90002            
15984.588  791.90002            
16188.195  791.20001            
16391.745  790.09998            
16595.238  791.70001            
16798.675  790.29999            
17002.054  790.09998            
17205.378  790.09998            
17408.644  789.59998            
17611.854  790.5            
17815.007  789.79999            
18018.103  790.79999            
18221.143  791            
18424.127  789.40002            
18627.053  788.20001            
18829.923  789.70001            
19032.737  789.70001            
19235.494  790.20001            
19438.195  790.5            
19640.839  790.59998            
19843.427  790.59998            
20045.959  790.09998            
20248.434  789.79999            
20450.853  789.79999            
20653.215  789.20001            
20855.521  791.40002            
21057.771  789            
21259.964  789            
21462.101  789            
21664.182  787.90002            
21866.207  788.29999            
22068.176  789.20001            
22270.088  787.59998            
22471.945  787.29999            
22673.745  789            
22875.489  787.70001            
23077.177  788.09998            
23278.809  787.40002            
23480.384  788.29999            
23681.904  788.5            
23883.368  788.09998            
24084.776  788.29999            
24286.128  788.40002            
24487.424  787.09998            
24688.664  788.70001            
24889.848  787.59998            
25090.977  787.79999            
25292.049  787.59998            
25493.066  787.59998            
25694.027  786.79999            
25894.932  787.5            
26095.781  787.5            
26296.575  786.09998            
26497.312  788.09998            
26697.994  787.79999            
26898.621  787.40002            
27099.192  787.5            
27299.707  787.90002            
27500.167  788.09998            
27700.571  787.29999            
27900.919  786.90002            
28101.212  789.09998            
28301.449  788.70001            
28501.631  788.79999            
28701.757  788.29999            
28901.828  788            
29101.844  787.79999            
29301.804  788.09998            
29501.708  788.5            
29701.557  790            
29901.351  789.29999            
30101.09  787.59998            
30300.773  788.5            
30500.401  788.40002            
30699.973  789.59998            
30899.491  787.29999            
31098.953  788.29999            
31298.36  789.29999            
31497.712  789            
31697.008  788.5            
31896.25  788.29999            
32095.436  788.79999            
32294.567  788.5            
32493.643  789.40002            
32692.664  791.20001            
32891.63  789.79999            
33090.541  788.5            
33289.397  790.29999            
33488.198  792.29999            
33686.944  790            
33885.635  790.29999            
34084.272  789            
34282.853  789.29999            
34481.379  789.40002            
34679.851  789.09998            
34878.267  789.5            
35076.629  790.09998            
35274.936  789.79999            
35473.189  789.90002            
35671.386  788.59998            
35869.529  788.40002            
36067.617  790.40002            
36265.651  789.5            
36463.629  789.59998            
36661.554  791.09998            
36859.423  791            
37057.238  790.29999            
37254.998  790.79999            
37452.704  790            
37650.355  790.79999            
37847.952  789.29999            
38045.494  790.29999            
38242.982  789.90002            
38440.415  790.09998            
38637.794  791.29999            
38835.118  788.79999            
39032.388  790.5            
39229.603  789.79999            
39426.765  790.70001            
39623.872  790.20001            
39820.924  789.59998            
40017.922  788.79999            
40214.866  791.40002            
40411.756  790.20001            
40608.592  790.20001            
40805.373  789.5            
41002.1  791.59998            
41198.773  788.79999            
41395.391  789.20001            
41591.956  790            
41788.467  790            
41984.923  789.79999            
42181.325  790.59998            
42377.674  790.59998            
42573.968  790            
42770.208  790.20001            
42966.394  789.09998            
43162.527  789.5            
43358.605  788.70001            
43554.629  789.90002            
43750.6  789.90002            
43946.516  788.90002            
44142.379  789.09998            
44338.188  790.59998            
44533.943  790.09998            
44729.644  790.09998            
44925.292  789.5            
45120.885  790.29999            
45316.425  789.09998            
45511.912  789.70001            
45707.344  789.20001            
45902.723  788.09998            
46098.048  788            
46293.32  788.5            
46488.537  789.90002            
46683.702  790.90002            
46878.812  790.20001            
47073.87  788.29999            
47268.873  789            
47463.823  790.09998            
47658.72  789.79999            
47853.563  789.29999            
48048.352  789.90002            
48243.089  790.79999            
48437.771  791.20001            
48632.401  790.90002            
48826.977  790.20001            
49021.499  789.79999            
49215.968  791.20001            
49410.384  791            
49604.747  789.5            
49799.056  789.79999            
49993.312  790.59998            
50187.515  791            
50381.665  788.29999            
50575.761  790.29999            
50769.804  791.09998            
50963.795  791.29999            
51157.731  789.90002            
51351.615  791.20001            
51545.446  791.09998            
51739.224  791.20001            
51932.948  791.40002            
52126.62  790.40002            
52320.238  791.79999            
52513.803  791.70001            
52707.316  791.70001            
52900.776  792.59998            
53094.182  792.5            
53287.536  792.59998            
53480.836  791.90002            
53674.084  791            
53867.279  792            
54060.421  792.90002            
54253.511  792.09998            
54446.547  793.90002            
54639.531  794.09998            
54832.462  792.40002            
55025.34  794.09998            
55218.166  794.29999            
55410.939  795.29999            
55603.659  794.20001            
55796.326  794.29999            
55988.941  797            
56181.503  795.5            
56374.013  796.29999            
56566.47  795.70001            
56758.874  797.90002            
56951.226  798.29999            
57143.525  795.5            
57335.772  797.59998            
57527.966  798            
57720.108  797.70001            
57912.198  796.20001            
58104.235  797.20001            
58296.219  796            
58488.151  796.09998            
58680.031  793.20001            
58871.859  797            
59063.634  796.29999            
59255.356  795.20001            
59447.027  796.70001            
59638.645  796.59998            
59830.211  795.90002            
60021.725  795.29999            
60213.186  795            
60404.596  797            
60595.953  795.20001            
60787.258  795            
60978.511  795.20001            
61169.711  796.29999            
61360.86  796.09998            
61551.957  795.40002            
61743.001  796.59998            
61933.994  795.70001            
62124.934  795.29999            
62315.822  794.70001            
62506.659  795.40002            
62697.443  797.40002            
62888.176  796.09998            
63078.857  795.90002            
63269.485  795.29999            
63460.062  793.59998            
63650.587  792.79999            
63841.06  794.70001            
64031.482  793.59998            
64221.851  794            
64412.169  793.70001            
64602.435  794.79999            
64792.649  793.40002            
64982.811  792.09998            
65172.922  794.40002            
65362.981  794            
65552.988  791.90002            
65742.944  792.09998            
65932.848  793.40002            
66122.701  791.5            
66312.501  791.5            
66502.251  792.5            
66691.949  791.20001            
66881.595  790.90002            
67071.189  790.59998            
67260.733  790.59998            
67450.224  789.5            
67639.664  789.79999            
67829.053  788.79999            
68018.391  788.79999            
68207.677  787.29999            
68396.911  788.29999            
68586.094  787.09998            
68775.226  789.09998            
68964.307  787.70001            
69153.336  787.70001            
69342.314  786.40002            
69531.24  787.5            
69720.116  787.20001            
69908.94  786.59998            
70097.713  786.90002            
70286.435  787.20001            
70475.105  787.40002            
70663.725  786.79999            
70852.293  786.40002            
71040.81  786.40002            
71229.276  787.09998            
71417.691  786.79999            
71606.055  787.20001            
71794.368  786.70001            
71982.63  785.59998            
72170.841  786.40002            
72359.001  786.20001            
72547.109  786.29999            
72735.167  785.70001            
72923.174  786            
73111.131  786.70001            
73299.036  786.70001            
73486.89  786.09998            
73674.694  787.29999            
73862.446  786.59998            
74050.148  785.5            
74237.799  785.29999            
74425.399  786.09998            
74612.949  786.29999            
74800.447  785.59998            
74987.896  786.40002            
75175.293  784.90002            
75362.639  784.79999            
75549.935  785.09998            
75737.181  785.90002            
75924.375  785.59998            
76111.519  786            
76298.613  785.5            
76485.656  786.70001            
76672.648  784.5            
76859.59  786            
77046.481  786.40002            
77233.322  787.40002            
77420.112  787.09998            
77606.852  786.79999            
77793.542  785.90002            
77980.181  786.5            
78166.769  786.09998            
78353.308  786.40002            
78539.795  787.59998            
78726.233  786.20001            
78912.62  785.79999            
79098.957  786.29999            
79285.243  786.20001            
79471.48  784.59998            
79657.666  785.90002            
79843.801  786.09998            
80029.887  785.40002            
80215.922  784.59998            
80401.907  785.5            
80587.842  786.29999            
80773.727  785.5            
80959.562  785.59998            
81145.347  783.59998            
81331.081  785.5            
81516.766  786.20001            
81702.4  785.09998            
81887.984  785            
82073.519  784.59998            
82259.003  783.90002            
82444.438  785.09998            
82629.822  785.70001            
82815.156  784.5            
83000.441  785.29999            
83185.676  786.5            
83370.86  786.40002            
83555.995  785.59998            
83741.08  785.5            
83926.115  785.90002            
84111.101  785.09998            
84296.036  785.29999            
84480.922  785.40002            
84665.758  783.59998            
84850.545  786.5            
85035.281  786.20001            
85219.968  785.20001            
85404.605  784.5            
85589.193  785.79999            
85773.731  785.90002            
85958.219  785.79999            
86142.657  786.5            
86327.046  786.29999            
86511.386  785.40002            
86695.676  786.40002            
86879.916  784.79999            
87064.107  786            
87248.248  785.59998            
87432.34  784.59998            
87616.383  786.29999            
87800.375  785.5            
87984.319  785.59998            
88168.213  784.79999            
88352.058  785.5            
88535.853  786.20001            
